block,trial,trialtype,trialtype_string,cuetype,cuetype_string,correct_key,key_pressed,is_resp_corr,reaction_time
1,1,3,left_incg,0,incg,num_9,num_9,1,0.47726630000397563
1,2,2,right_incg,0,incg,num_7,num_7,1,0.37758780003059655
1,3,2,right_incg,0,incg,num_7,num_7,1,0.525598399923183
1,4,3,left_incg,0,incg,num_9,num_9,1,0.46367999992799014
1,5,3,left_incg,0,incg,num_9,num_9,1,0.4417482999851927
1,6,2,right_incg,0,incg,num_7,num_7,1,0.5620477999327704
1,7,2,right_incg,0,incg,num_7,num_7,1,0.5749512000475079
1,8,3,left_incg,0,incg,num_9,num_9,1,0.5290910999756306
1,9,3,left_incg,0,incg,num_9,num_9,1,0.48586109990719706
1,10,3,left_incg,0,incg,num_9,num_9,1,0.5000386999454349
1,11,0,right_cong,1,cong,num_9,num_9,1,0.5642187000485137
1,12,1,left_cong,1,cong,num_7,num_7,1,0.3642180999740958
1,13,1,left_cong,1,cong,num_7,num_7,1,0.3753880000440404
1,14,0,right_cong,1,cong,num_9,num_9,1,0.3977968000108376
1,15,0,right_cong,1,cong,num_9,num_9,1,0.3717185999266803
1,16,0,right_cong,1,cong,num_9,num_9,1,0.5811809999868274
1,17,0,right_cong,1,cong,num_9,num_9,1,0.3906441000290215
1,18,0,right_cong,1,cong,num_9,num_9,1,0.4256915000732988
1,19,0,right_cong,1,cong,num_9,num_9,1,0.4232831000117585
1,20,0,right_cong,1,cong,num_9,num_9,1,0.4940620999550447
1,21,0,right_cong,1,cong,num_9,num_9,1,0.6295650999527425
1,22,0,right_cong,1,cong,num_9,num_9,1,0.5029123000567779
1,23,1,left_cong,1,cong,num_7,num_7,1,0.5143674000864848
1,24,1,left_cong,1,cong,num_7,num_7,1,0.4588937999214977
1,25,1,left_cong,1,cong,num_7,num_7,1,0.4570401000091806
1,26,0,right_cong,1,cong,num_9,num_9,1,0.638701899908483
1,27,0,right_cong,1,cong,num_9,num_9,1,0.45198739995248616
1,28,0,right_cong,1,cong,num_9,num_9,1,0.3604216000530869
1,29,0,right_cong,1,cong,num_9,num_9,1,0.5244278999743983
1,30,0,right_cong,1,cong,num_9,num_9,1,0.40965940000023693
1,31,3,left_incg,0,incg,num_9,num_7,0,0.563213900080882
1,32,2,right_incg,0,incg,num_7,num_7,1,0.6768858000868931
1,33,3,left_incg,0,incg,num_9,num_9,1,0.45372620003763586
1,34,2,right_incg,0,incg,num_7,num_7,1,0.5526639999588951
1,35,2,right_incg,0,incg,num_7,num_7,1,0.5000381999416277
1,36,3,left_incg,0,incg,num_9,num_9,1,0.6327896000584587
1,37,3,left_incg,0,incg,num_9,num_9,1,0.49216809996869415
1,38,3,left_incg,0,incg,num_9,num_9,1,0.4076742000179365
1,39,2,right_incg,0,incg,num_7,num_7,1,0.500040499959141
1,40,2,right_incg,0,incg,num_7,num_7,1,0.46853420010302216
1,41,1,left_cong,1,cong,num_7,num_7,1,0.7932984998915344
1,42,0,right_cong,1,cong,num_9,num_9,1,0.5000380999408662
1,43,1,left_cong,1,cong,num_7,num_7,1,0.932046200032346
1,44,1,left_cong,1,cong,num_7,num_7,1,0.7534433000255376
1,45,1,left_cong,1,cong,num_7,num_7,1,0.5201221000170335
1,46,1,left_cong,1,cong,num_7,num_7,1,0.8451425000093877
1,47,1,left_cong,1,cong,num_7,num_7,1,0.5621983999153599
1,48,1,left_cong,1,cong,num_7,num_7,1,0.4675169000402093
1,49,1,left_cong,1,cong,num_7,num_7,1,0.3429524999810383
1,50,0,right_cong,1,cong,num_9,num_9,1,0.5426320999395102
1,51,1,left_cong,1,cong,num_7,num_7,1,0.5704776000929996
1,52,0,right_cong,1,cong,num_9,num_9,1,0.3865003999089822
1,53,0,right_cong,1,cong,num_9,num_9,1,0.5000343000283465
1,54,0,right_cong,1,cong,num_9,num_9,1,0.42280280007980764
1,55,0,right_cong,1,cong,num_9,num_9,1,0.38525379996281117
1,56,0,right_cong,1,cong,num_9,num_9,1,0.5901651000604033
1,57,1,left_cong,1,cong,num_7,num_7,1,0.4403658000519499
1,58,0,right_cong,1,cong,num_9,num_9,1,0.3894437999697402
1,59,0,right_cong,1,cong,num_9,num_9,1,0.38907169993035495
1,60,1,left_cong,1,cong,num_7,num_7,1,0.3535239000339061
1,61,2,right_incg,0,incg,num_7,num_7,1,0.7527503999881446
1,62,3,left_incg,0,incg,num_9,num_9,1,0.4882392000872642
1,63,2,right_incg,0,incg,num_7,num_7,1,0.3427848999854177
1,64,2,right_incg,0,incg,num_7,num_7,1,0.43442700000014156
1,65,2,right_incg,0,incg,num_7,num_7,1,0.4073199999984354
1,66,1,left_cong,1,cong,num_7,num_7,1,0.534905800013803
1,67,0,right_cong,1,cong,num_9,num_9,1,0.42181189998518676
1,68,0,right_cong,1,cong,num_9,num_9,1,0.5000389000633731
1,69,0,right_cong,1,cong,num_9,num_9,1,0.41634940006770194
1,70,1,left_cong,1,cong,num_7,num_7,1,0.41465519997291267
1,71,3,left_incg,0,incg,num_9,num_9,1,0.9201065999222919
1,72,2,right_incg,0,incg,num_7,num_7,1,0.500038200058043
1,73,3,left_incg,0,incg,num_9,num_9,1,0.3795465000439435
1,74,3,left_incg,0,incg,num_9,num_9,1,0.5000407999614254
1,75,3,left_incg,0,incg,num_9,num_9,1,0.48466229997575283
1,76,1,left_cong,1,cong,num_7,num_7,1,0.6314685000106692
1,77,0,right_cong,1,cong,num_9,num_9,1,0.3547951999353245
1,78,1,left_cong,1,cong,num_7,num_7,1,0.4147029999876395
1,79,1,left_cong,1,cong,num_7,num_7,1,0.45636650000233203
1,80,1,left_cong,1,cong,num_7,num_7,1,0.3962622999679297
1,81,0,right_cong,1,cong,num_9,num_9,1,0.5428959999699146
1,82,0,right_cong,1,cong,num_9,num_9,1,0.8164533000672236
1,83,0,right_cong,1,cong,num_9,num_9,1,0.46606540004722774
1,84,0,right_cong,1,cong,num_9,num_9,1,0.39715780003461987
1,85,1,left_cong,1,cong,num_7,num_7,1,0.36043699993751943
1,86,1,left_cong,1,cong,num_7,num_7,1,0.643879699986428
1,87,0,right_cong,1,cong,num_9,num_9,1,0.48327029997017235
1,88,1,left_cong,1,cong,num_7,num_7,1,0.34165900002699345
1,89,0,right_cong,1,cong,num_9,num_9,1,0.35642560000997037
1,90,0,right_cong,1,cong,num_9,num_9,1,0.37315760005731136
1,91,3,left_incg,0,incg,num_9,num_9,1,0.6059268999379128
1,92,3,left_incg,0,incg,num_9,num_9,1,0.4771108999848366
1,93,3,left_incg,0,incg,num_9,num_9,1,0.41716640000231564
1,94,2,right_incg,0,incg,num_7,num_7,1,0.5000357000390068
1,95,3,left_incg,0,incg,num_9,num_9,1,0.5676136999391019
1,96,0,right_cong,1,cong,num_9,num_9,1,0.9043301000492647
1,97,0,right_cong,1,cong,num_9,num_9,1,0.59110010007862
1,98,1,left_cong,1,cong,num_7,num_7,1,0.5197344999760389
1,99,0,right_cong,1,cong,num_9,num_9,1,0.3970164000056684
1,100,0,right_cong,1,cong,num_9,num_9,1,0.45416239998303354
2,1,0,right_cong,1,cong,num_9,num_9,1,0.475904899998568
2,2,0,right_cong,1,cong,num_9,num_9,1,0.388690400053747
2,3,0,right_cong,1,cong,num_9,num_9,1,0.45300679991487414
2,4,1,left_cong,1,cong,num_7,num_7,1,0.4539385000243783
2,5,1,left_cong,1,cong,num_7,num_7,1,0.3892469999846071
2,6,3,left_incg,0,incg,num_9,num_9,1,0.6692346000345424
2,7,3,left_incg,0,incg,num_9,num_9,1,0.46996189991477877
2,8,3,left_incg,0,incg,num_9,num_9,1,0.3838826999999583
2,9,3,left_incg,0,incg,num_9,num_9,1,0.4001620999770239
2,10,2,right_incg,0,incg,num_7,num_7,1,0.5413497999543324
2,11,0,right_cong,1,cong,num_9,num_9,1,0.6468423999613151
2,12,1,left_cong,1,cong,num_7,num_7,1,0.5025330999633297
2,13,1,left_cong,1,cong,num_7,num_7,1,0.5218235000502318
2,14,0,right_cong,1,cong,num_9,num_9,1,0.4307219000766054
2,15,1,left_cong,1,cong,num_7,num_7,1,0.3964483999880031
2,16,3,left_incg,0,incg,num_9,num_9,1,1.044145500054583
2,17,2,right_incg,0,incg,num_7,num_7,1,0.5107006001053378
2,18,2,right_incg,0,incg,num_7,num_7,1,0.5000424000900239
2,19,2,right_incg,0,incg,num_7,num_7,1,0.4868716000346467
2,20,2,right_incg,0,incg,num_7,num_7,1,0.5390648000175133
2,21,1,left_cong,1,cong,num_7,num_7,1,1.0161374000599608
2,22,1,left_cong,1,cong,num_7,num_7,1,0.5453704999526963
2,23,0,right_cong,1,cong,num_9,num_9,1,0.5595101000508294
2,24,0,right_cong,1,cong,num_9,num_9,1,0.5658299999777228
2,25,1,left_cong,1,cong,num_7,num_7,1,0.45074350002687424
2,26,3,left_incg,0,incg,num_9,num_9,1,0.5752699000295252
2,27,3,left_incg,0,incg,num_9,num_9,1,0.5000379999401048
2,28,3,left_incg,0,incg,num_9,num_9,1,0.45107019995339215
2,29,3,left_incg,0,incg,num_9,num_9,1,0.46963270008563995
2,30,3,left_incg,0,incg,num_9,num_9,1,0.46577419992536306
2,31,2,right_incg,0,incg,num_7,num_7,1,0.7803352999035269
2,32,3,left_incg,0,incg,num_9,num_9,1,0.526850700029172
2,33,2,right_incg,0,incg,num_7,num_7,1,0.48828610009513795
2,34,3,left_incg,0,incg,num_9,num_9,1,0.45450430002529174
2,35,2,right_incg,0,incg,num_7,num_7,1,0.4755379999987781
2,36,0,right_cong,1,cong,num_9,num_9,1,0.61389430006966
2,37,1,left_cong,1,cong,num_7,num_7,1,0.38887209992390126
2,38,0,right_cong,1,cong,num_9,num_9,1,0.4323006001068279
2,39,0,right_cong,1,cong,num_9,num_9,1,0.41989159991499037
2,40,1,left_cong,1,cong,num_7,num_7,1,0.5000468000071123
2,41,0,right_cong,1,cong,num_9,num_9,1,0.7266697000013664
2,42,0,right_cong,1,cong,num_9,num_9,1,0.6586580000584945
2,43,1,left_cong,1,cong,num_7,num_7,1,0.4406201000092551
2,44,0,right_cong,1,cong,num_9,num_9,1,0.4089334000600502
2,45,0,right_cong,1,cong,num_9,num_9,1,0.4001826000167057
2,46,0,right_cong,1,cong,num_9,num_9,1,0.6107092999154702
2,47,0,right_cong,1,cong,num_9,num_9,1,0.482888099970296
2,48,1,left_cong,1,cong,num_7,num_7,1,0.3508099999744445
2,49,0,right_cong,1,cong,num_9,num_9,1,0.41163139999844134
2,50,1,left_cong,1,cong,num_7,num_7,1,0.39482319995295256
2,51,2,right_incg,0,incg,num_7,num_7,1,0.5686696000630036
2,52,2,right_incg,0,incg,num_7,num_7,1,0.4701674999669194
2,53,2,right_incg,0,incg,num_7,num_7,1,0.5163769000209868
2,54,2,right_incg,0,incg,num_7,num_7,1,0.449190599960275
2,55,2,right_incg,0,incg,num_7,num_7,1,0.48180059995502234
2,56,2,right_incg,0,incg,num_7,num_7,1,0.8220083999913186
2,57,2,right_incg,0,incg,num_7,num_7,1,0.48647330002859235
2,58,3,left_incg,0,incg,num_9,num_9,1,0.6189458000008017
2,59,3,left_incg,0,incg,num_9,num_9,1,0.4905792000936344
2,60,2,right_incg,0,incg,num_7,num_7,1,0.5043066999642178
2,61,2,right_incg,0,incg,num_7,num_7,1,0.6941847000271082
2,62,3,left_incg,0,incg,num_9,num_9,1,0.4430095999268815
2,63,2,right_incg,0,incg,num_7,num_7,1,0.3714863999048248
2,64,2,right_incg,0,incg,num_7,num_7,1,0.44297350000124425
2,65,3,left_incg,0,incg,num_9,num_9,1,0.46742470003664494
2,66,0,right_cong,1,cong,num_9,num_9,1,0.5004947999259457
2,67,0,right_cong,1,cong,num_9,num_9,1,0.4338331000180915
2,68,1,left_cong,1,cong,num_7,num_7,1,0.46628169994801283
2,69,0,right_cong,1,cong,num_9,num_9,1,0.40423360001295805
2,70,1,left_cong,1,cong,num_7,num_7,1,0.3568271000403911
2,71,0,right_cong,1,cong,num_9,num_9,1,0.723379599978216
2,72,0,right_cong,1,cong,num_9,num_9,1,0.5000372000504285
2,73,0,right_cong,1,cong,num_9,num_9,1,0.4706219000509009
2,74,0,right_cong,1,cong,num_9,num_9,1,0.40129099995829165
2,75,0,right_cong,1,cong,num_9,num_9,1,0.3725649999687448
2,76,1,left_cong,1,cong,num_7,num_7,1,0.8423309999052435
2,77,1,left_cong,1,cong,num_7,num_7,1,0.6609698999673128
2,78,0,right_cong,1,cong,num_9,num_9,1,0.5574733000248671
2,79,0,right_cong,1,cong,num_9,num_9,1,0.39226960006635636
2,80,1,left_cong,1,cong,num_7,num_7,1,0.3491022000089288
2,81,1,left_cong,1,cong,num_7,num_7,1,0.5882553999545053
2,82,0,right_cong,1,cong,num_9,num_9,1,0.3868378000333905
2,83,1,left_cong,1,cong,num_7,num_7,1,0.3572091000387445
2,84,1,left_cong,1,cong,num_7,num_7,1,0.41045099997427315
2,85,1,left_cong,1,cong,num_7,num_7,1,0.4322991999797523
2,86,3,left_incg,0,incg,num_9,num_9,1,0.5843930999981239
2,87,2,right_incg,0,incg,num_7,num_7,1,0.4266010000137612
2,88,2,right_incg,0,incg,num_7,num_7,1,0.698333999956958
2,89,2,right_incg,0,incg,num_7,num_7,1,0.47046550002414733
2,90,2,right_incg,0,incg,num_7,num_7,1,0.500046500004828
2,91,1,left_cong,1,cong,num_7,num_7,1,0.6434317999519408
2,92,1,left_cong,1,cong,num_7,num_7,1,0.37467300007119775
2,93,1,left_cong,1,cong,num_7,num_7,1,0.3473012000322342
2,94,1,left_cong,1,cong,num_7,num_7,1,0.3264589000027627
2,95,1,left_cong,1,cong,num_7,num_7,1,0.37826870009303093
2,96,0,right_cong,1,cong,num_9,num_9,1,0.6628035000758246
2,97,1,left_cong,1,cong,num_7,num_7,1,0.42773860006127506
2,98,1,left_cong,1,cong,num_7,num_7,1,0.3912597999442369
2,99,0,right_cong,1,cong,num_9,num_9,1,0.45250250003300607
2,100,1,left_cong,1,cong,num_7,num_7,1,0.3260066999355331
3,1,0,right_cong,1,cong,num_9,num_9,1,0.6789323999546468
3,2,0,right_cong,1,cong,num_9,num_9,1,0.5541006000712514
3,3,0,right_cong,1,cong,num_9,num_9,1,0.4870296000735834
3,4,0,right_cong,1,cong,num_9,num_9,1,0.5599761999910697
3,5,1,left_cong,1,cong,num_7,num_7,1,0.5934302000096068
3,6,1,left_cong,1,cong,num_7,num_7,1,0.5000379999401048
3,7,1,left_cong,1,cong,num_7,num_7,1,0.43168909999076277
3,8,1,left_cong,1,cong,num_7,num_7,1,0.4531052000820637
3,9,1,left_cong,1,cong,num_7,num_7,1,0.5228428000118583
3,10,1,left_cong,1,cong,num_7,num_7,1,0.4351186000276357
3,11,2,right_incg,0,incg,num_7,num_7,1,0.6275222999975085
3,12,3,left_incg,0,incg,num_9,num_9,1,0.44844919990282506
3,13,2,right_incg,0,incg,num_7,num_7,1,0.5313536999747157
3,14,2,right_incg,0,incg,num_7,num_7,1,0.5447082000318915
3,15,2,right_incg,0,incg,num_7,num_7,1,0.505109200021252
3,16,0,right_cong,1,cong,num_9,num_9,1,1.2358057999517769
3,17,1,left_cong,1,cong,num_7,num_7,1,0.5064904999453574
3,18,1,left_cong,1,cong,num_7,num_7,1,0.4169224000070244
3,19,1,left_cong,1,cong,num_7,num_7,1,0.4019663999788463
3,20,0,right_cong,1,cong,num_9,num_9,1,0.3595150000182912
3,21,3,left_incg,0,incg,num_9,num_9,1,0.4659315999597311
3,22,3,left_incg,0,incg,num_9,num_9,1,0.46607900003436953
3,23,3,left_incg,0,incg,num_9,num_9,1,0.45149260002654046
3,24,3,left_incg,0,incg,num_9,num_9,1,0.42184399999678135
3,25,3,left_incg,0,incg,num_9,num_9,1,0.5728833000175655
3,26,3,left_incg,0,incg,num_9,num_9,1,0.4877755999332294
3,27,2,right_incg,0,incg,num_7,num_7,1,0.4981495999963954
3,28,3,left_incg,0,incg,num_9,num_9,1,0.521631499985233
3,29,3,left_incg,0,incg,num_9,num_9,1,0.4192462000064552
3,30,2,right_incg,0,incg,num_7,num_7,1,0.4796435999451205
3,31,2,right_incg,0,incg,num_7,num_7,1,0.6852393000153825
3,32,3,left_incg,0,incg,num_9,num_9,1,0.41238520003389567
3,33,3,left_incg,0,incg,num_9,num_9,1,0.5240557000506669
3,34,3,left_incg,0,incg,num_9,num_9,1,0.4336616999935359
3,35,2,right_incg,0,incg,num_7,num_7,1,0.41021700005512685
3,36,1,left_cong,1,cong,num_7,num_9,0,0.819457900011912
3,37,0,right_cong,1,cong,num_9,num_9,1,0.6789660999784246
3,38,0,right_cong,1,cong,num_9,num_9,1,0.5000361000420526
3,39,1,left_cong,1,cong,num_7,num_7,1,0.34368890000041574
3,40,1,left_cong,1,cong,num_7,num_7,1,0.3701193999731913
3,41,2,right_incg,0,incg,num_7,num_7,1,0.5000363999279216
3,42,2,right_incg,0,incg,num_7,num_7,1,0.500203299918212
3,43,3,left_incg,0,incg,num_9,num_9,1,0.5351621999870986
3,44,3,left_incg,0,incg,num_9,num_9,1,0.5000440999865532
3,45,2,right_incg,0,incg,num_7,num_7,1,0.42670409998390824
3,46,0,right_cong,1,cong,num_9,num_9,1,0.7264058999717236
3,47,1,left_cong,1,cong,num_7,num_7,1,0.42825659993104637
3,48,0,right_cong,1,cong,num_9,num_9,1,0.3163896999321878
3,49,1,left_cong,1,cong,num_7,num_7,1,0.29725910001434386
3,50,0,right_cong,1,cong,num_9,num_9,1,0.3687575999647379
3,51,3,left_incg,0,incg,num_9,num_9,1,0.7845787999685854
3,52,3,left_incg,0,incg,num_9,num_9,1,0.5324669999536127
3,53,3,left_incg,0,incg,num_9,num_9,1,0.4528125999495387
3,54,2,right_incg,0,incg,num_7,num_7,1,0.39315870008431375
3,55,2,right_incg,0,incg,num_7,num_7,1,0.42477400007192045
3,56,0,right_cong,1,cong,num_9,num_9,1,1.2691387999802828
3,57,1,left_cong,1,cong,num_7,num_7,1,0.5670876000076532
3,58,1,left_cong,1,cong,num_7,num_7,1,0.3650504000252113
3,59,0,right_cong,1,cong,num_9,num_9,1,0.3332205000333488
3,60,1,left_cong,1,cong,num_7,num_7,1,0.28017030004411936
3,61,0,right_cong,1,cong,num_9,num_9,1,1.1455954000120983
3,62,0,right_cong,1,cong,num_9,num_9,1,0.5886169999139383
3,63,1,left_cong,1,cong,num_7,num_7,1,0.35387059999629855
3,64,0,right_cong,1,cong,num_9,num_9,1,0.3405060999793932
3,65,0,right_cong,1,cong,num_9,num_9,1,0.525239699985832
3,66,1,left_cong,1,cong,num_7,num_7,1,0.6022375000175089
3,67,0,right_cong,1,cong,num_9,num_9,1,0.3912991000106558
3,68,1,left_cong,1,cong,num_7,num_7,1,0.317778299911879
3,69,1,left_cong,1,cong,num_7,num_7,1,0.36064940004143864
3,70,0,right_cong,1,cong,num_9,num_9,1,0.349585400079377
3,71,1,left_cong,1,cong,num_7,num_7,1,0.3724770999979228
3,72,1,left_cong,1,cong,num_7,num_7,1,0.3074725999031216
3,73,0,right_cong,1,cong,num_9,num_9,1,0.31963180005550385
3,74,1,left_cong,1,cong,num_7,num_7,1,0.31597910006530583
3,75,0,right_cong,1,cong,num_9,num_9,1,0.3482672000536695
3,76,3,left_incg,0,incg,num_9,num_9,1,0.860774900065735
3,77,2,right_incg,0,incg,num_7,num_7,1,0.35220960003789514
3,78,2,right_incg,0,incg,num_7,num_7,1,0.4121291999472305
3,79,2,right_incg,0,incg,num_7,num_7,1,0.4037025000434369
3,80,2,right_incg,0,incg,num_7,num_7,1,0.38044039998203516
3,81,3,left_incg,0,incg,num_9,num_9,1,0.4692998999962583
3,82,2,right_incg,0,incg,num_7,num_7,1,0.3714254000224173
3,83,2,right_incg,0,incg,num_7,num_7,1,0.45453460002318025
3,84,3,left_incg,0,incg,num_9,num_9,1,0.39904390007723123
3,85,2,right_incg,0,incg,num_7,num_7,1,0.36797839996870607
3,86,2,right_incg,0,incg,num_7,num_7,1,0.5398157000308856
3,87,2,right_incg,0,incg,num_7,num_7,1,0.4065919000422582
3,88,3,left_incg,0,incg,num_9,num_9,1,0.42062150000128895
3,89,2,right_incg,0,incg,num_7,num_7,1,0.38026639993768185
3,90,3,left_incg,0,incg,num_9,num_9,1,0.43320870003663003
3,91,0,right_cong,1,cong,num_9,num_9,1,0.8738348000915721
3,92,0,right_cong,1,cong,num_9,num_9,1,0.6474076000740752
3,93,1,left_cong,1,cong,num_7,num_7,1,0.3323041000403464
3,94,0,right_cong,1,cong,num_9,num_9,1,0.3268061999697238
3,95,1,left_cong,1,cong,num_7,num_7,1,0.2562696000095457
3,96,3,left_incg,0,incg,num_9,num_9,1,0.5894545000046492
3,97,3,left_incg,0,incg,num_9,num_9,1,0.47016140003688633
3,98,3,left_incg,0,incg,num_9,num_9,1,0.3825670999940485
3,99,2,right_incg,0,incg,num_7,num_7,1,0.36094869999215007
3,100,3,left_incg,0,incg,num_9,num_9,1,0.383284299983643
4,1,2,right_incg,0,incg,num_7,num_7,1,0.5158699000021443
4,2,2,right_incg,0,incg,num_7,num_7,1,0.5000439999857917
4,3,3,left_incg,0,incg,num_9,num_9,1,0.4039864999940619
4,4,3,left_incg,0,incg,num_9,num_9,1,0.42318829998839647
4,5,3,left_incg,0,incg,num_9,num_9,1,0.41233150009065866
4,6,2,right_incg,0,incg,num_7,num_7,1,0.5000371999340132
4,7,3,left_incg,0,incg,num_9,num_9,1,0.41131959995254874
4,8,3,left_incg,0,incg,num_9,num_9,1,0.44603730004746467
4,9,2,right_incg,0,incg,num_7,num_7,1,0.5000380999408662
4,10,2,right_incg,0,incg,num_7,num_7,1,0.5000370000489056
4,11,1,left_cong,1,cong,num_7,num_7,1,0.3867741000140086
4,12,1,left_cong,1,cong,num_7,num_7,1,0.369160300004296
4,13,1,left_cong,1,cong,num_7,num_7,1,0.4160189999965951
4,14,0,right_cong,1,cong,num_9,num_9,1,0.37990539998281747
4,15,0,right_cong,1,cong,num_9,num_9,1,0.5000368999317288
4,16,1,left_cong,1,cong,num_7,num_7,1,0.7622403000714257
4,17,0,right_cong,1,cong,num_9,num_9,1,0.41579679993446916
4,18,0,right_cong,1,cong,num_9,num_9,1,0.42296280001755804
4,19,0,right_cong,1,cong,num_9,num_9,1,0.36299560009501874
4,20,0,right_cong,1,cong,num_9,num_9,1,0.34234139998443425
4,21,2,right_incg,0,incg,num_7,num_7,1,0.6572687999578193
4,22,2,right_incg,0,incg,num_7,num_7,1,0.38951220002491027
4,23,3,left_incg,0,incg,num_9,num_9,1,0.38961399998515844
4,24,2,right_incg,0,incg,num_7,num_7,1,0.3918889999622479
4,25,3,left_incg,0,incg,num_9,num_9,1,0.33289560000412166
4,26,0,right_cong,1,cong,num_9,num_9,1,0.5424242001026869
4,27,0,right_cong,1,cong,num_9,num_9,1,0.36387140001170337
4,28,1,left_cong,1,cong,num_7,num_7,1,0.35697050008457154
4,29,0,right_cong,1,cong,num_9,num_9,1,0.37035159999504685
4,30,0,right_cong,1,cong,num_9,num_9,1,0.44982470001559705
4,31,2,right_incg,0,incg,num_7,num_7,1,0.537468200083822
4,32,2,right_incg,0,incg,num_7,num_7,1,0.489982100087218
4,33,2,right_incg,0,incg,num_7,num_7,1,0.5106178999412805
4,34,3,left_incg,0,incg,num_9,num_9,1,0.3775730999186635
4,35,2,right_incg,0,incg,num_7,num_7,1,0.35346630006097257
4,36,1,left_cong,1,cong,num_7,num_7,1,0.36872699996456504
4,37,1,left_cong,1,cong,num_7,num_7,1,0.3930446000304073
4,38,1,left_cong,1,cong,num_7,num_7,1,0.39394500001799315
4,39,1,left_cong,1,cong,num_7,num_7,1,0.4099276999477297
4,40,0,right_cong,1,cong,num_9,num_9,1,0.7228873000713065
4,41,2,right_incg,0,incg,num_7,num_7,1,0.42420770006719977
4,42,3,left_incg,0,incg,num_9,num_9,1,0.43881349998991936
4,43,2,right_incg,0,incg,num_7,num_7,1,0.4377886999864131
4,44,3,left_incg,0,incg,num_9,num_9,1,0.32618219999130815
4,45,2,right_incg,0,incg,num_7,num_7,1,0.3888188999844715
4,46,1,left_cong,1,cong,num_7,num_7,1,1.1366229000268504
4,47,1,left_cong,1,cong,num_7,num_7,1,0.5849633000325412
4,48,1,left_cong,1,cong,num_7,num_7,1,0.5000455999979749
4,49,0,right_cong,1,cong,num_9,num_9,1,0.41630719997920096
4,50,1,left_cong,1,cong,num_7,num_7,1,0.3492557000136003
4,51,0,right_cong,1,cong,num_9,num_9,1,0.5423746999586001
4,52,0,right_cong,1,cong,num_9,num_9,1,0.45987040002364665
4,53,0,right_cong,1,cong,num_9,num_9,1,0.40959319996181875
4,54,0,right_cong,1,cong,num_9,num_9,1,0.3726377999410033
4,55,0,right_cong,1,cong,num_9,num_9,1,0.42542390001472086
4,56,3,left_incg,0,incg,num_9,num_9,1,0.4904185999184847
4,57,3,left_incg,0,incg,num_9,num_9,1,0.4035114999860525
4,58,3,left_incg,0,incg,num_9,num_9,1,0.364988400018774
4,59,2,right_incg,0,incg,num_7,num_7,1,0.40189109998755157
4,60,2,right_incg,0,incg,num_7,num_7,1,0.5106194999534637
4,61,3,left_incg,0,incg,num_9,num_9,1,0.6814114999724552
4,62,3,left_incg,0,incg,num_9,num_9,1,0.5000341000268236
4,63,3,left_incg,0,incg,num_9,num_9,1,0.41981959994882345
4,64,3,left_incg,0,incg,num_9,num_9,1,0.37716090003959835
4,65,3,left_incg,0,incg,num_9,num_9,1,0.4081612000009045
4,66,1,left_cong,1,cong,num_7,num_7,1,0.7205713000148535
4,67,0,right_cong,1,cong,num_9,num_9,1,0.39674759993795305
4,68,1,left_cong,1,cong,num_7,num_7,1,0.3147692000493407
4,69,0,right_cong,1,cong,num_9,num_9,1,0.35427080001682043
4,70,0,right_cong,1,cong,num_9,num_9,1,0.3227335000410676
4,71,3,left_incg,0,incg,num_9,num_9,1,1.17336819996126
4,72,2,right_incg,0,incg,num_7,num_7,1,0.5089478000300005
4,73,2,right_incg,0,incg,num_7,num_7,1,0.4458967000246048
4,74,2,right_incg,0,incg,num_7,num_7,1,0.44978489994537085
4,75,3,left_incg,0,incg,num_9,num_9,1,0.3817102999892086
4,76,0,right_cong,1,cong,num_9,num_9,1,0.44320850004442036
4,77,1,left_cong,1,cong,num_7,num_7,1,0.34651649999432266
4,78,0,right_cong,1,cong,num_9,num_9,1,0.3192172000417486
4,79,1,left_cong,1,cong,num_7,num_7,1,0.3363729000557214
4,80,1,left_cong,1,cong,num_7,num_7,1,0.40760859998408705
4,81,1,left_cong,1,cong,num_7,num_7,1,0.501708000083454
4,82,0,right_cong,1,cong,num_9,num_9,1,0.3450853000395
4,83,1,left_cong,1,cong,num_7,num_7,1,0.3376874999376014
4,84,0,right_cong,1,cong,num_9,num_9,1,0.36506009998265654
4,85,1,left_cong,1,cong,num_7,num_7,1,0.3367570999544114
4,86,2,right_incg,0,incg,num_7,num_7,1,0.6926339999772608
4,87,3,left_incg,0,incg,num_9,num_9,1,0.3512679999694228
4,88,3,left_incg,0,incg,num_9,num_9,1,0.43701899994630367
4,89,3,left_incg,0,incg,num_9,num_9,1,0.4389454999472946
4,90,2,right_incg,0,incg,num_7,num_7,1,0.4782878999831155
4,91,3,left_incg,0,incg,num_9,num_9,1,0.6402713999850675
4,92,2,right_incg,0,incg,num_7,num_7,1,0.35125299997162074
4,93,2,right_incg,0,incg,num_7,num_7,1,0.5000379000557587
4,94,3,left_incg,0,incg,num_9,num_9,1,0.3888568999245763
4,95,3,left_incg,0,incg,num_9,num_9,1,0.4755668999860063
4,96,1,left_cong,1,cong,num_7,num_7,1,0.8795930999331176
4,97,1,left_cong,1,cong,num_7,num_7,1,0.4402524000033736
4,98,1,left_cong,1,cong,num_7,num_7,1,0.5000482000177726
4,99,0,right_cong,1,cong,num_9,num_9,1,1.1160814999602735
4,100,0,right_cong,1,cong,num_9,num_9,1,0.8308950000209734
5,1,1,left_cong,1,cong,num_7,num_7,1,0.5517919999547303
5,2,1,left_cong,1,cong,num_7,num_7,1,0.3956503999652341
5,3,1,left_cong,1,cong,num_7,num_7,1,0.3940759999677539
5,4,1,left_cong,1,cong,num_7,num_7,1,0.37280919996555895
5,5,0,right_cong,1,cong,num_9,num_9,1,0.42792619997635484
5,6,3,left_incg,0,incg,num_9,num_9,1,0.43213500001002103
5,7,2,right_incg,0,incg,num_7,num_7,1,0.3793757000239566
5,8,2,right_incg,0,incg,num_7,num_7,1,0.4966194999869913
5,9,3,left_incg,0,incg,num_9,num_9,1,0.37592360004782677
5,10,2,right_incg,0,incg,num_7,num_7,1,0.3482800000347197
5,11,3,left_incg,0,incg,num_9,num_9,1,0.7626134000020102
5,12,2,right_incg,0,incg,num_7,num_7,1,0.37574160005897284
5,13,3,left_incg,0,incg,num_9,num_9,1,0.3445302000036463
5,14,2,right_incg,0,incg,num_7,num_7,1,0.3444403000175953
5,15,3,left_incg,0,incg,num_9,num_9,1,0.31926879996899515
5,16,0,right_cong,1,cong,num_9,num_9,1,0.3937092999694869
5,17,1,left_cong,1,cong,num_7,num_7,1,0.3233417998999357
5,18,0,right_cong,1,cong,num_9,num_9,1,0.3137586999218911
5,19,1,left_cong,1,cong,num_7,num_7,1,0.279279200010933
5,20,0,right_cong,1,cong,num_9,num_9,1,0.3350284999469295
5,21,2,right_incg,0,incg,num_7,num_7,1,0.8861040000338107
5,22,2,right_incg,0,incg,num_7,num_7,1,0.5974977998994291
5,23,3,left_incg,0,incg,num_9,num_9,1,0.4368543999735266
5,24,3,left_incg,0,incg,num_9,num_9,1,0.40571040008217096
5,25,2,right_incg,0,incg,num_7,num_7,1,0.3721659000730142
5,26,2,right_incg,0,incg,num_7,num_7,1,0.48276699997950345
5,27,2,right_incg,0,incg,num_7,num_7,1,0.4660007000202313
5,28,2,right_incg,0,incg,num_7,num_7,1,0.49479240004438907
5,29,2,right_incg,0,incg,num_7,num_7,1,0.5116037999978289
5,30,3,left_incg,0,incg,num_9,num_9,1,0.44258809997700155
5,31,3,left_incg,0,incg,num_9,num_9,1,0.5178667999571189
5,32,3,left_incg,0,incg,num_9,num_9,1,0.5216319001046941
5,33,3,left_incg,0,incg,num_9,num_9,1,0.39529839996248484
5,34,2,right_incg,0,incg,num_7,num_7,1,0.39479629998095334
5,35,3,left_incg,0,incg,num_9,num_9,1,0.3714384000049904
5,36,3,left_incg,0,incg,num_9,num_9,1,0.47483880002982914
5,37,2,right_incg,0,incg,num_7,num_7,1,0.3848977000452578
5,38,3,left_incg,0,incg,num_9,num_9,1,0.32526319997850806
5,39,2,right_incg,0,incg,num_7,num_7,1,0.4372711000032723
5,40,2,right_incg,0,incg,num_7,num_7,1,0.5943683000514284
5,41,1,left_cong,1,cong,num_7,num_7,1,0.5287880999967456
5,42,1,left_cong,1,cong,num_7,num_7,1,0.39465909998398274
5,43,0,right_cong,1,cong,num_9,num_9,1,0.41587889997754246
5,44,1,left_cong,1,cong,num_7,num_7,1,0.40300849999766797
5,45,0,right_cong,1,cong,num_9,num_9,1,0.5409298000158742
5,46,2,right_incg,0,incg,num_7,num_7,1,0.71940469997935
5,47,3,left_incg,0,incg,num_9,num_9,1,0.38366289995610714
5,48,3,left_incg,0,incg,num_9,num_9,1,0.5833713999018073
5,49,3,left_incg,0,incg,num_9,num_9,1,0.4460074999369681
5,50,3,left_incg,0,incg,num_9,num_9,1,0.42079469992313534
5,51,3,left_incg,0,incg,num_9,num_9,1,0.6245539999799803
5,52,3,left_incg,0,incg,num_9,num_9,1,0.5802533000241965
5,53,2,right_incg,0,incg,num_7,num_7,1,0.45918899995740503
5,54,3,left_incg,0,incg,num_9,num_9,1,0.39068630000110716
5,55,2,right_incg,0,incg,num_7,num_7,1,0.3455191000830382
5,56,0,right_cong,1,cong,num_9,num_9,1,0.6310301999328658
5,57,1,left_cong,1,cong,num_7,num_7,1,0.35201040003448725
5,58,1,left_cong,1,cong,num_7,num_7,1,0.34129839995875955
5,59,1,left_cong,1,cong,num_7,num_7,1,0.37893679994158447
5,60,0,right_cong,1,cong,num_9,num_9,1,0.3661446999758482
5,61,1,left_cong,1,cong,num_7,num_7,1,0.32323999993968755
5,62,0,right_cong,1,cong,num_9,num_9,1,0.3664190999697894
5,63,1,left_cong,1,cong,num_7,num_7,1,0.35092470003291965
5,64,1,left_cong,1,cong,num_7,num_7,1,0.4202030999585986
5,65,0,right_cong,1,cong,num_9,num_9,1,0.4688899000175297
5,66,2,right_incg,0,incg,num_7,num_7,1,0.44470709993038327
5,67,3,left_incg,0,incg,num_9,num_9,1,0.3424240000313148
5,68,3,left_incg,0,incg,num_9,num_9,1,0.39412859990261495
5,69,3,left_incg,0,incg,num_9,num_9,1,0.46288580005057156
5,70,3,left_incg,0,incg,num_9,num_9,1,0.5214719000505283
5,71,2,right_incg,0,incg,num_7,num_7,1,0.5171341000823304
5,72,3,left_incg,0,incg,num_9,num_9,1,0.35285260004457086
5,73,2,right_incg,0,incg,num_7,num_7,1,0.4022951000370085
5,74,2,right_incg,0,incg,num_7,num_9,0,0.33495029993355274
5,75,3,left_incg,0,incg,num_9,num_9,1,0.4410772999981418
5,76,2,right_incg,0,incg,num_7,num_7,1,0.5700188000919297
5,77,2,right_incg,0,incg,num_7,num_7,1,0.45446729997638613
5,78,3,left_incg,0,incg,num_9,num_9,1,0.4784578999970108
5,79,3,left_incg,0,incg,num_9,num_9,1,0.538105999934487
5,80,3,left_incg,0,incg,num_9,num_9,1,0.46260430000256747
5,81,2,right_incg,0,incg,num_7,num_7,1,0.40712319989688694
5,82,3,left_incg,0,incg,num_9,num_9,1,0.4152178999502212
5,83,2,right_incg,0,incg,num_7,num_7,1,0.38095260004047304
5,84,3,left_incg,0,incg,num_9,num_9,1,0.5000468000071123
5,85,3,left_incg,0,incg,num_9,num_9,1,0.4046849999576807
5,86,1,left_cong,1,cong,num_7,num_7,1,0.5383991999551654
5,87,1,left_cong,1,cong,num_7,num_7,1,0.40913029992952943
5,88,1,left_cong,1,cong,num_7,num_7,1,0.3935766000067815
5,89,0,right_cong,1,cong,num_9,num_9,1,0.3732782000442967
5,90,0,right_cong,1,cong,num_9,num_9,1,0.40179609996266663
5,91,0,right_cong,1,cong,num_9,num_9,1,0.6150159999961033
5,92,0,right_cong,1,cong,num_9,num_9,1,0.4195743999443948
5,93,0,right_cong,1,cong,num_9,num_9,1,0.33753310004249215
5,94,0,right_cong,1,cong,num_9,num_9,1,0.36469240009319037
5,95,0,right_cong,1,cong,num_9,num_9,1,0.32205529999919236
5,96,2,right_incg,0,incg,num_7,num_7,1,0.4892130000516772
5,97,2,right_incg,0,incg,num_7,num_7,1,0.4153406999539584
5,98,2,right_incg,0,incg,num_7,num_7,1,0.4075664000120014
5,99,3,left_incg,0,incg,num_9,num_9,1,0.4847267000004649
5,100,2,right_incg,0,incg,num_7,num_7,1,0.44298960000742227
6,1,0,right_cong,1,cong,num_9,num_9,1,0.5620095999911427
6,2,1,left_cong,1,cong,num_7,num_7,1,0.41391640005167574
6,3,0,right_cong,1,cong,num_9,num_9,1,0.690950799966231
6,4,1,left_cong,1,cong,num_7,num_7,1,0.35924090002663434
6,5,0,right_cong,1,cong,num_9,num_9,1,0.3552682000445202
6,6,2,right_incg,0,incg,num_7,num_7,1,0.48838590004015714
6,7,2,right_incg,0,incg,num_7,num_7,1,0.5000439999857917
6,8,2,right_incg,0,incg,num_7,num_7,1,0.43286279996391386
6,9,3,left_incg,0,incg,num_9,num_9,1,0.48644520004745573
6,10,2,right_incg,0,incg,num_7,num_7,1,0.4037373000755906
6,11,0,right_cong,1,cong,num_9,num_9,1,0.603939300053753
6,12,1,left_cong,1,cong,num_7,num_7,1,0.3965689000906423
6,13,0,right_cong,1,cong,num_9,num_9,1,0.39899479993619025
6,14,0,right_cong,1,cong,num_9,num_9,1,0.42979920003563166
6,15,1,left_cong,1,cong,num_7,num_7,1,0.3731587999500334
6,16,3,left_incg,0,incg,num_9,num_9,1,0.4466481999261305
6,17,3,left_incg,0,incg,num_9,num_9,1,0.49185689992737025
6,18,3,left_incg,0,incg,num_9,num_9,1,0.4088181999977678
6,19,2,right_incg,0,incg,num_7,num_7,1,0.37181660009082407
6,20,2,right_incg,0,incg,num_7,num_7,1,0.43562709994148463
6,21,1,left_cong,1,cong,num_7,num_7,1,0.7116072999779135
6,22,1,left_cong,1,cong,num_7,num_7,1,0.3877951999893412
6,23,0,right_cong,1,cong,num_9,num_9,1,0.3506113999756053
6,24,1,left_cong,1,cong,num_7,num_7,1,0.3004077000077814
6,25,0,right_cong,1,cong,num_9,num_9,1,0.3248896000441164
6,26,2,right_incg,0,incg,num_7,num_7,1,0.6322119999676943
6,27,2,right_incg,0,incg,num_7,num_7,1,0.5000407999614254
6,28,2,right_incg,0,incg,num_7,num_7,1,0.4668385999975726
6,29,2,right_incg,0,incg,num_7,num_7,1,0.4344689999707043
6,30,2,right_incg,0,incg,num_7,num_7,1,0.3597634000470862
6,31,0,right_cong,1,cong,num_9,num_9,1,0.5074186999117956
6,32,0,right_cong,1,cong,num_9,num_9,1,0.4368316000327468
6,33,1,left_cong,1,cong,num_7,num_7,1,0.36649339995346963
6,34,1,left_cong,1,cong,num_7,num_7,1,0.40567830007057637
6,35,0,right_cong,1,cong,num_9,num_9,1,0.3933586999773979
6,36,1,left_cong,1,cong,num_7,num_7,1,0.41050280001945794
6,37,1,left_cong,1,cong,num_7,num_7,1,0.3870512000285089
6,38,1,left_cong,1,cong,num_7,num_7,1,0.38210050005000085
6,39,0,right_cong,1,cong,num_9,num_9,1,0.4530749999685213
6,40,1,left_cong,1,cong,num_7,num_7,1,0.33157549996394664
6,41,2,right_incg,0,incg,num_7,num_7,1,1.278812500066124
6,42,2,right_incg,0,incg,num_7,num_7,1,0.5003938999725506
6,43,3,left_incg,0,incg,num_9,num_9,1,0.48690400004852563
6,44,3,left_incg,0,incg,num_9,num_9,1,0.434209999977611
6,45,2,right_incg,0,incg,num_7,num_7,1,0.3889134000055492
6,46,2,right_incg,0,incg,num_7,num_7,1,0.6386840000050142
6,47,3,left_incg,0,incg,num_9,num_9,1,0.44202849990688264
6,48,3,left_incg,0,incg,num_9,num_9,1,0.5000462000025436
6,49,3,left_incg,0,incg,num_9,num_9,1,0.4918698000255972
6,50,3,left_incg,0,incg,num_9,num_9,1,0.39888649992644787
6,51,2,right_incg,0,incg,num_7,num_7,1,0.4276486999588087
6,52,2,right_incg,0,incg,num_7,num_7,1,0.575175300007686
6,53,3,left_incg,0,incg,num_9,num_9,1,0.4389806999824941
6,54,3,left_incg,0,incg,num_9,num_9,1,0.5000473000109196
6,55,2,right_incg,0,incg,num_7,num_7,1,0.44511640002019703
6,56,2,right_incg,0,incg,num_7,num_7,1,0.7350840999279171
6,57,3,left_incg,0,incg,num_9,num_9,1,0.4156133000506088
6,58,3,left_incg,0,incg,num_9,num_9,1,0.39370470005087554
6,59,3,left_incg,0,incg,num_9,num_9,1,0.40225739998277277
6,60,2,right_incg,0,incg,num_7,num_7,1,0.39174040011130273
6,61,1,left_cong,1,cong,num_7,num_7,1,0.5309813999338076
6,62,0,right_cong,1,cong,num_9,num_9,1,0.3425196000607684
6,63,1,left_cong,1,cong,num_7,num_7,1,0.37411179998889565
6,64,0,right_cong,1,cong,num_9,num_9,1,0.3577699998859316
6,65,1,left_cong,1,cong,num_7,num_7,1,0.32510280003771186
6,66,0,right_cong,1,cong,num_9,num_9,1,0.8301240999717265
6,67,1,left_cong,1,cong,num_7,num_7,1,0.4263419999042526
6,68,1,left_cong,1,cong,num_7,num_7,1,0.41739449999295175
6,69,0,right_cong,1,cong,num_9,num_9,1,0.3132868999382481
6,70,0,right_cong,1,cong,num_9,num_9,1,0.43819779995828867
6,71,2,right_incg,0,incg,num_7,num_7,1,0.7908708000322804
6,72,2,right_incg,0,incg,num_7,num_7,1,0.5947039000457153
6,73,2,right_incg,0,incg,num_7,num_7,1,0.553190500009805
6,74,3,left_incg,0,incg,num_9,num_9,1,0.42177919996902347
6,75,2,right_incg,0,incg,num_7,num_7,1,0.7675476999720559
6,76,2,right_incg,0,incg,num_7,num_7,1,0.5000378000549972
6,77,3,left_incg,0,incg,num_9,num_9,1,0.3856532999780029
6,78,3,left_incg,0,incg,num_9,num_9,1,0.5000392000656575
6,79,3,left_incg,0,incg,num_9,num_9,1,0.4833360000047833
6,80,2,right_incg,0,incg,num_7,num_7,1,0.588963899994269
6,81,3,left_incg,0,incg,num_9,num_9,1,0.39003519993275404
6,82,3,left_incg,0,incg,num_9,num_9,1,0.443719599978067
6,83,2,right_incg,0,incg,num_7,num_7,1,0.4657090000109747
6,84,3,left_incg,0,incg,num_9,num_9,1,0.3867859001038596
6,85,2,right_incg,0,incg,num_7,num_7,1,0.7201738000148907
6,86,1,left_cong,1,cong,num_7,num_7,1,0.5360588000621647
6,87,1,left_cong,1,cong,num_7,num_7,1,0.42074429988861084
6,88,1,left_cong,1,cong,num_7,num_7,1,0.40251109993550926
6,89,1,left_cong,1,cong,num_7,num_7,1,0.4593257999513298
6,90,0,right_cong,1,cong,num_9,num_9,1,0.3725865000160411
6,91,1,left_cong,1,cong,num_7,num_7,1,0.4699972999515012
6,92,1,left_cong,1,cong,num_7,num_7,1,0.4399844999425113
6,93,1,left_cong,1,cong,num_7,num_7,1,0.37908610003069043
6,94,0,right_cong,1,cong,num_9,num_9,1,0.44688190007582307
6,95,1,left_cong,1,cong,num_7,num_7,1,0.36972790001891553
6,96,2,right_incg,0,incg,num_7,num_7,1,0.5045529999770224
6,97,3,left_incg,0,incg,num_9,num_9,1,0.32444660004694015
6,98,2,right_incg,0,incg,num_7,num_7,1,0.3797457000473514
6,99,3,left_incg,0,incg,num_9,num_9,1,0.4864811999723315
6,100,3,left_incg,0,incg,num_9,num_9,1,0.4615496000042185
7,1,0,right_cong,1,cong,num_9,num_9,1,0.48541510000359267
7,2,1,left_cong,1,cong,num_7,num_7,1,0.6509722999762744
7,3,0,right_cong,1,cong,num_9,num_9,1,0.5467149999458343
7,4,0,right_cong,1,cong,num_9,num_9,1,0.3946089999517426
7,5,1,left_cong,1,cong,num_7,num_7,1,0.3574400000507012
7,6,3,left_incg,0,incg,num_9,num_9,1,0.6217695000814274
7,7,3,left_incg,0,incg,num_9,num_9,1,0.5282260000240058
7,8,3,left_incg,0,incg,num_9,num_9,1,0.4330000000772998
7,9,3,left_incg,0,incg,num_9,num_9,1,0.40425840008538216
7,10,3,left_incg,0,incg,num_9,num_9,1,0.5000397999538109
7,11,2,right_incg,0,incg,num_7,num_7,1,0.681867599952966
7,12,3,left_incg,0,incg,num_9,num_9,1,0.5516080000670627
7,13,2,right_incg,0,incg,num_7,num_7,1,0.7836589000653476
7,14,3,left_incg,0,incg,num_9,num_9,1,0.47911020007450134
7,15,3,left_incg,0,incg,num_9,num_9,1,0.3881140999728814
7,16,2,right_incg,0,incg,num_7,num_7,1,0.8340087999822572
7,17,3,left_incg,0,incg,num_9,num_9,1,0.3998171000275761
7,18,2,right_incg,0,incg,num_7,num_7,1,0.37014059990178794
7,19,3,left_incg,0,incg,num_9,num_9,1,0.31904840003699064
7,20,3,left_incg,0,incg,num_9,num_9,1,0.34657119994517416
7,21,1,left_cong,1,cong,num_7,num_7,1,0.9670673999935389
7,22,0,right_cong,1,cong,num_9,num_9,1,0.3376764999702573
7,23,1,left_cong,1,cong,num_7,num_7,1,0.41014729999005795
7,24,1,left_cong,1,cong,num_7,num_7,1,0.48889270005747676
7,25,0,right_cong,1,cong,num_9,num_9,1,0.4420169999357313
7,26,3,left_incg,0,incg,num_9,num_9,1,0.8208836000412703
7,27,3,left_incg,0,incg,num_9,num_9,1,0.4328798999777064
7,28,3,left_incg,0,incg,num_9,num_9,1,0.37822630000300705
7,29,3,left_incg,0,incg,num_9,num_9,1,0.40976880001835525
7,30,3,left_incg,0,incg,num_9,num_9,1,0.3458136999979615
7,31,2,right_incg,0,incg,num_7,num_7,1,0.5272936000255868
7,32,3,left_incg,0,incg,num_9,num_9,1,0.40746769995894283
7,33,2,right_incg,0,incg,num_7,num_7,1,0.41630599997006357
7,34,3,left_incg,0,incg,num_9,num_9,1,0.35386549995746464
7,35,2,right_incg,0,incg,num_7,num_7,1,0.4148959000594914
7,36,3,left_incg,0,incg,num_9,num_9,1,0.620270499959588
7,37,3,left_incg,0,incg,num_9,num_9,1,0.4427725999848917
7,38,2,right_incg,0,incg,num_7,num_7,1,0.3826911000069231
7,39,2,right_incg,0,incg,num_7,num_7,1,0.5111410999670625
7,40,2,right_incg,0,incg,num_7,num_7,1,0.6508115000324324
7,41,1,left_cong,1,cong,num_7,num_7,1,0.5071411000099033
7,42,0,right_cong,1,cong,num_9,num_9,1,0.3241340999957174
7,43,1,left_cong,1,cong,num_7,num_7,1,0.3085921999299899
7,44,0,right_cong,1,cong,num_9,num_9,1,0.3518477000761777
7,45,1,left_cong,1,cong,num_7,num_7,1,0.335445599979721
7,46,0,right_cong,1,cong,num_9,num_9,1,0.34746800002176315
7,47,1,left_cong,1,cong,num_7,num_7,1,0.3311886000446975
7,48,1,left_cong,1,cong,num_7,num_7,1,0.4070675999391824
7,49,1,left_cong,1,cong,num_7,num_7,1,0.4009156000101939
7,50,1,left_cong,1,cong,num_7,num_7,1,0.3675950999604538
7,51,1,left_cong,1,cong,num_7,num_7,1,0.3751380000030622
7,52,1,left_cong,1,cong,num_7,num_7,1,0.32388839998748153
7,53,0,right_cong,1,cong,num_9,num_9,1,0.3391998999286443
7,54,1,left_cong,1,cong,num_7,num_7,1,0.3142036000499502
7,55,1,left_cong,1,cong,num_7,num_7,1,0.3893299999181181
7,56,0,right_cong,1,cong,num_9,num_9,1,0.39018820005003363
7,57,1,left_cong,1,cong,num_7,num_7,1,0.2809560999739915
7,58,0,right_cong,1,cong,num_9,num_9,1,0.4336092999437824
7,59,0,right_cong,1,cong,num_9,num_9,1,0.46956460003275424
7,60,0,right_cong,1,cong,num_9,num_9,1,0.3637666000286117
7,61,3,left_incg,0,incg,num_9,num_9,1,0.3657715000445023
7,62,3,left_incg,0,incg,num_9,num_9,1,0.39182589994743466
7,63,3,left_incg,0,incg,num_9,num_9,1,0.4102055999683216
7,64,2,right_incg,0,incg,num_7,num_7,1,0.36435940000228584
7,65,3,left_incg,0,incg,num_9,num_9,1,0.349044100032188
7,66,1,left_cong,1,cong,num_7,num_7,1,0.4847183999372646
7,67,1,left_cong,1,cong,num_7,num_7,1,0.3560588000109419
7,68,1,left_cong,1,cong,num_7,num_7,1,0.36796820000745356
7,69,1,left_cong,1,cong,num_7,num_7,1,0.3249375999439508
7,70,0,right_cong,1,cong,num_9,num_9,1,0.3345119000878185
7,71,0,right_cong,1,cong,num_9,num_9,1,0.3976062999572605
7,72,0,right_cong,1,cong,num_9,num_9,1,0.37781830003950745
7,73,1,left_cong,1,cong,num_7,num_7,1,0.30191679997369647
7,74,1,left_cong,1,cong,num_7,num_7,1,0.35714109998662025
7,75,0,right_cong,1,cong,num_9,num_9,1,0.32097590004559606
7,76,1,left_cong,1,cong,num_7,num_7,1,0.5081662000156939
7,77,0,right_cong,1,cong,num_9,num_9,1,0.3745495999464765
7,78,1,left_cong,1,cong,num_7,num_7,1,0.26348890003282577
7,79,1,left_cong,1,cong,num_7,num_7,1,0.40278850006870925
7,80,1,left_cong,1,cong,num_7,num_7,1,0.3486428000032902
7,81,3,left_incg,0,incg,num_9,num_9,1,0.8719207000685856
7,82,3,left_incg,0,incg,num_9,num_9,1,0.4549772999016568
7,83,2,right_incg,0,incg,num_7,num_7,1,0.3919182999525219
7,84,3,left_incg,0,incg,num_9,num_9,1,0.3714605000568554
7,85,3,left_incg,0,incg,num_9,num_9,1,0.5491095000179484
7,86,1,left_cong,1,cong,num_7,num_7,1,0.7761165000265464
7,87,1,left_cong,1,cong,num_7,num_7,1,0.3588970999699086
7,88,1,left_cong,1,cong,num_7,num_7,1,0.35274949995800853
7,89,0,right_cong,1,cong,num_9,num_9,1,0.3584037000546232
7,90,0,right_cong,1,cong,num_9,num_9,1,0.3501125000184402
7,91,2,right_incg,0,incg,num_7,num_7,1,0.4902992000570521
7,92,3,left_incg,0,incg,num_9,num_9,1,0.38585259998217225
7,93,3,left_incg,0,incg,num_9,num_9,1,0.36386949999723583
7,94,2,right_incg,0,incg,num_7,num_7,1,0.4560770000098273
7,95,3,left_incg,0,incg,num_9,num_9,1,0.33290979999583215
7,96,2,right_incg,0,incg,num_7,num_7,1,0.9035321000264958
7,97,2,right_incg,0,incg,num_7,num_7,1,0.3959035000298172
7,98,3,left_incg,0,incg,num_9,num_9,1,0.33909200003836304
7,99,2,right_incg,0,incg,num_7,num_7,1,0.3692725000437349
7,100,2,right_incg,0,incg,num_7,num_7,1,0.5000386999454349
8,1,3,left_incg,0,incg,num_9,num_9,1,0.5383609000127763
8,2,2,right_incg,0,incg,num_7,num_7,1,0.39818210003431886
8,3,3,left_incg,0,incg,num_9,num_9,1,0.39001100009772927
8,4,2,right_incg,0,incg,num_7,num_7,1,0.3572286000708118
8,5,3,left_incg,0,incg,num_9,num_9,1,0.3325324000325054
8,6,3,left_incg,0,incg,num_9,num_9,1,0.4789887999650091
8,7,3,left_incg,0,incg,num_9,num_9,1,0.40006140002515167
8,8,3,left_incg,0,incg,num_9,num_7,0,0.38084019999951124
8,9,3,left_incg,0,incg,num_9,num_7,0,0.7963492999551818
8,10,3,left_incg,0,incg,num_9,num_9,1,1.0300364999566227
8,11,1,left_cong,1,cong,num_7,num_7,1,1.0578662001062185
8,12,1,left_cong,1,cong,num_7,num_7,1,0.6102188000222668
8,13,0,right_cong,1,cong,num_9,num_9,1,0.3668058000039309
8,14,1,left_cong,1,cong,num_7,num_7,1,1.141576400026679
8,15,0,right_cong,1,cong,num_9,num_9,1,0.3339790999889374
8,16,0,right_cong,1,cong,num_9,num_9,1,0.5532327999826521
8,17,1,left_cong,1,cong,num_7,num_7,1,0.3813936000224203
8,18,1,left_cong,1,cong,num_7,num_7,1,0.38602129998616874
8,19,1,left_cong,1,cong,num_7,num_7,1,0.38204279995989054
8,20,1,left_cong,1,cong,num_7,num_7,1,0.5000385000603274
8,21,3,left_incg,0,incg,num_9,num_9,1,0.585520000080578
8,22,2,right_incg,0,incg,num_7,num_7,1,0.3810057999799028
8,23,3,left_incg,0,incg,num_9,num_9,1,0.3649089999962598
8,24,3,left_incg,0,incg,num_9,num_9,1,0.4744429000420496
8,25,2,right_incg,0,incg,num_7,num_7,1,0.3773225999902934
8,26,2,right_incg,0,incg,num_7,num_7,1,0.7295742999995127
8,27,2,right_incg,0,incg,num_7,num_7,1,0.44649060000665486
8,28,2,right_incg,0,incg,num_7,num_7,1,0.41758290003053844
8,29,3,left_incg,0,incg,num_9,num_9,1,0.4350677999900654
8,30,3,left_incg,0,incg,num_9,num_9,1,0.5109315000008792
8,31,1,left_cong,1,cong,num_7,num_7,1,0.37944960000459105
8,32,0,right_cong,1,cong,num_9,num_9,1,0.28785700001753867
8,33,1,left_cong,1,cong,num_7,num_7,1,0.30384930002037436
8,34,0,right_cong,1,cong,num_9,num_9,1,0.28801659995224327
8,35,1,left_cong,1,cong,num_7,num_7,1,0.2909241000888869
8,36,3,left_incg,0,incg,num_9,num_9,1,0.36166499997489154
8,37,3,left_incg,0,incg,num_9,num_9,1,0.4183360000606626
8,38,3,left_incg,0,incg,num_9,num_9,1,0.4565817000111565
8,39,3,left_incg,0,incg,num_9,num_9,1,0.37303809996228665
8,40,2,right_incg,0,incg,num_7,num_7,1,0.9794815999921411
8,41,0,right_cong,1,cong,num_9,num_9,1,0.5975355000700802
8,42,0,right_cong,1,cong,num_9,num_9,1,0.3851354999933392
8,43,1,left_cong,1,cong,num_7,num_7,1,0.32083070010412484
8,44,0,right_cong,1,cong,num_9,num_9,1,0.3382863000733778
8,45,0,right_cong,1,cong,num_9,num_9,1,0.39222939999308437
8,46,1,left_cong,1,cong,num_7,num_7,1,0.34812320000492036
8,47,0,right_cong,1,cong,num_9,num_9,1,0.317773700109683
8,48,1,left_cong,1,cong,num_7,num_7,1,0.35147130000405014
8,49,0,right_cong,1,cong,num_9,num_9,1,0.33185030007734895
8,50,1,left_cong,1,cong,num_7,num_7,1,0.3049206000287086
8,51,2,right_incg,0,incg,num_7,num_7,1,0.694217799929902
8,52,2,right_incg,0,incg,num_7,num_7,1,0.47932009992655367
8,53,2,right_incg,0,incg,num_7,num_7,1,0.5782357000280172
8,54,3,left_incg,0,incg,num_9,num_9,1,0.4108484999742359
8,55,2,right_incg,0,incg,num_7,num_7,1,0.38982359995134175
8,56,1,left_cong,1,cong,num_7,num_7,1,0.5544804999371991
8,57,0,right_cong,1,cong,num_9,num_9,1,0.36356019997037947
8,58,1,left_cong,1,cong,num_7,num_7,1,0.2916910999920219
8,59,1,left_cong,1,cong,num_7,num_7,1,0.4056816000957042
8,60,0,right_cong,1,cong,num_9,num_9,1,0.32789580000098795
8,61,1,left_cong,1,cong,num_7,num_7,1,0.6478167000459507
8,62,1,left_cong,1,cong,num_7,num_7,1,0.3615809000330046
8,63,0,right_cong,1,cong,num_9,num_9,1,0.32098199997562915
8,64,0,right_cong,1,cong,num_9,num_9,1,0.39892910001799464
8,65,1,left_cong,1,cong,num_7,num_7,1,0.2819039000896737
8,66,3,left_incg,0,incg,num_9,num_9,1,0.34990709996782243
8,67,3,left_incg,0,incg,num_9,num_9,1,0.39427120005711913
8,68,2,right_incg,0,incg,num_7,num_7,1,0.4778659000294283
8,69,2,right_incg,0,incg,num_7,num_7,1,0.3801044001011178
8,70,2,right_incg,0,incg,num_7,num_7,1,0.5000380000565201
8,71,0,right_cong,1,cong,num_9,num_9,1,0.5510735000716522
8,72,0,right_cong,1,cong,num_9,num_9,1,0.4019775000633672
8,73,0,right_cong,1,cong,num_9,num_9,1,0.33103500003926456
8,74,0,right_cong,1,cong,num_9,num_9,1,0.29974090005271137
8,75,1,left_cong,1,cong,num_7,num_7,1,0.3397431999910623
8,76,0,right_cong,1,cong,num_9,num_9,1,0.3942139999708161
8,77,1,left_cong,1,cong,num_7,num_7,1,0.35399219999089837
8,78,1,left_cong,1,cong,num_7,num_7,1,0.3797556998906657
8,79,0,right_cong,1,cong,num_9,num_9,1,0.31452739995438606
8,80,1,left_cong,1,cong,num_7,num_7,1,0.33013089990708977
8,81,1,left_cong,1,cong,num_7,num_7,1,0.3967092999955639
8,82,0,right_cong,1,cong,num_9,num_9,1,0.4240078000584617
8,83,0,right_cong,1,cong,num_9,num_9,1,0.41236459999345243
8,84,1,left_cong,1,cong,num_7,num_7,1,0.33705170010216534
8,85,1,left_cong,1,cong,num_7,num_7,1,0.4307418999960646
8,86,3,left_incg,0,incg,num_9,num_9,1,0.3835792999016121
8,87,2,right_incg,0,incg,num_7,num_7,1,0.4730005000019446
8,88,3,left_incg,0,incg,num_9,num_9,1,0.35314919997472316
8,89,3,left_incg,0,incg,num_9,num_9,1,0.412212900002487
8,90,2,right_incg,0,incg,num_7,num_7,1,0.32530969998333603
8,91,1,left_cong,1,cong,num_7,num_7,1,0.7248705000383779
8,92,1,left_cong,1,cong,num_7,num_7,1,0.4155340000288561
8,93,0,right_cong,1,cong,num_9,num_9,1,0.30686100001912564
8,94,0,right_cong,1,cong,num_9,num_9,1,0.43938449991401285
8,95,0,right_cong,1,cong,num_9,num_9,1,0.5000338000245392
8,96,0,right_cong,1,cong,num_9,num_9,1,0.676706500002183
8,97,1,left_cong,1,cong,num_7,num_7,1,0.32393170008435845
8,98,1,left_cong,1,cong,num_7,num_7,1,0.34593529999256134
8,99,1,left_cong,1,cong,num_7,num_7,1,0.35008949995972216
8,100,0,right_cong,1,cong,num_9,num_9,1,0.35662400000728667
9,1,0,right_cong,1,cong,num_9,num_9,1,0.4269374000141397
9,2,0,right_cong,1,cong,num_9,num_9,1,0.32908779999706894
9,3,1,left_cong,1,cong,num_7,num_7,1,0.3467462999979034
9,4,1,left_cong,1,cong,num_7,num_7,1,0.3818432999541983
9,5,0,right_cong,1,cong,num_9,num_9,1,0.76399050001055
9,6,3,left_incg,0,incg,num_9,num_9,1,0.42597109999042004
9,7,3,left_incg,0,incg,num_9,num_9,1,0.45735020004212856
9,8,2,right_incg,0,incg,num_7,num_7,1,0.3512624999275431
9,9,3,left_incg,0,incg,num_9,num_9,1,0.3451774000423029
9,10,2,right_incg,0,incg,num_7,num_7,1,0.40963060001377016
9,11,0,right_cong,1,cong,num_9,num_9,1,0.538588700001128
9,12,0,right_cong,1,cong,num_9,num_9,1,0.3915889000054449
9,13,0,right_cong,1,cong,num_9,num_9,1,0.3401638000505045
9,14,0,right_cong,1,cong,num_9,num_9,1,0.32088259991724044
9,15,1,left_cong,1,cong,num_7,num_7,1,0.3359385000076145
9,16,1,left_cong,1,cong,num_7,num_7,1,0.6179656999884173
9,17,0,right_cong,1,cong,num_9,num_9,1,0.2906434000469744
9,18,0,right_cong,1,cong,num_9,num_9,1,0.39265769999474287
9,19,1,left_cong,1,cong,num_7,num_7,1,0.34058939991518855
9,20,1,left_cong,1,cong,num_7,num_7,1,0.3707725000567734
9,21,3,left_incg,0,incg,num_9,num_9,1,0.39948669995646924
9,22,2,right_incg,0,incg,num_7,num_7,1,0.3591772000072524
9,23,2,right_incg,0,incg,num_7,num_7,1,0.4380177999846637
9,24,3,left_incg,0,incg,num_9,num_9,1,0.3551284000277519
9,25,2,right_incg,0,incg,num_7,num_7,1,0.4060548000270501
9,26,2,right_incg,0,incg,num_7,num_7,1,0.7990584999788553
9,27,2,right_incg,0,incg,num_7,num_7,1,0.6343802000628784
9,28,2,right_incg,0,incg,num_7,num_7,1,0.4108629999682307
9,29,2,right_incg,0,incg,num_7,num_7,1,0.3791188000468537
9,30,2,right_incg,0,incg,num_7,num_7,1,0.37228009989485145
9,31,0,right_cong,1,cong,num_9,num_9,1,0.4189834001008421
9,32,1,left_cong,1,cong,num_7,num_7,1,0.3246786999516189
9,33,0,right_cong,1,cong,num_9,num_9,1,0.3695226999698207
9,34,1,left_cong,1,cong,num_7,num_7,1,0.28992529993411154
9,35,0,right_cong,1,cong,num_9,num_9,1,0.362199499970302
9,36,1,left_cong,1,cong,num_7,num_7,1,0.417160400073044
9,37,0,right_cong,1,cong,num_9,num_9,1,0.4131400999613106
9,38,0,right_cong,1,cong,num_9,num_9,1,0.3668481999775395
9,39,0,right_cong,1,cong,num_9,num_9,1,0.3575134000275284
9,40,1,left_cong,1,cong,num_7,num_7,1,0.2978857000125572
9,41,0,right_cong,1,cong,num_9,num_9,1,0.35724619997199625
9,42,1,left_cong,1,cong,num_7,num_7,1,0.29106459999457
9,43,0,right_cong,1,cong,num_9,num_9,1,0.33982320001814514
9,44,0,right_cong,1,cong,num_9,num_9,1,0.41180180001538247
9,45,1,left_cong,1,cong,num_7,num_7,1,0.3573397999862209
9,46,2,right_incg,0,incg,num_7,num_7,1,0.5000377000542358
9,47,3,left_incg,0,incg,num_9,num_9,1,0.2892726000864059
9,48,3,left_incg,0,incg,num_9,num_9,1,0.4586368000600487
9,49,2,right_incg,0,incg,num_7,num_7,1,0.4627858999883756
9,50,2,right_incg,0,incg,num_7,num_7,1,0.49639300000853837
9,51,0,right_cong,1,cong,num_9,num_9,1,0.579823000007309
9,52,1,left_cong,1,cong,num_7,num_7,1,0.34276379994116724
9,53,1,left_cong,1,cong,num_7,num_7,1,0.30594489991199225
9,54,0,right_cong,1,cong,num_9,num_9,1,0.3359970999881625
9,55,1,left_cong,1,cong,num_7,num_7,1,0.32102570007555187
9,56,3,left_incg,0,incg,num_9,num_9,1,1.4064637999981642
9,57,2,right_incg,0,incg,num_7,num_7,1,0.5265863999957219
9,58,3,left_incg,0,incg,num_9,num_9,1,0.5550879999063909
9,59,3,left_incg,0,incg,num_9,num_9,1,0.3772025000071153
9,60,2,right_incg,0,incg,num_7,num_7,1,0.8085901000304148
9,61,2,right_incg,0,incg,num_7,num_7,1,0.4828014000086114
9,62,3,left_incg,0,incg,num_9,num_9,1,0.3598943999968469
9,63,2,right_incg,0,incg,num_7,num_7,1,0.5036031999625266
9,64,2,right_incg,0,incg,num_7,num_7,1,0.49802939989604056
9,65,2,right_incg,0,incg,num_7,num_7,1,0.5115451000165194
9,66,0,right_cong,1,cong,num_9,num_9,1,0.377158600022085
9,67,0,right_cong,1,cong,num_9,num_9,1,0.339518400025554
9,68,0,right_cong,1,cong,num_9,num_9,1,0.38206479989457875
9,69,0,right_cong,1,cong,num_9,num_9,1,0.3592495999764651
9,70,1,left_cong,1,cong,num_7,num_7,1,0.374702800065279
9,71,0,right_cong,1,cong,num_9,num_9,1,0.6117231000680476
9,72,1,left_cong,1,cong,num_7,num_7,1,0.33784269995521754
9,73,0,right_cong,1,cong,num_9,num_9,1,0.3643873000983149
9,74,0,right_cong,1,cong,num_9,num_9,1,0.5000345000298694
9,75,1,left_cong,1,cong,num_7,num_7,1,0.31429749995004386
9,76,2,right_incg,0,incg,num_7,num_7,1,0.42784959997516125
9,77,2,right_incg,0,incg,num_7,num_9,0,0.30185739998705685
9,78,3,left_incg,0,incg,num_9,num_9,1,0.48162989993579686
9,79,2,right_incg,0,incg,num_7,num_7,1,1.1612591999582946
9,80,3,left_incg,0,incg,num_9,num_9,1,0.5000475000124425
9,81,2,right_incg,0,incg,num_7,num_7,1,0.5294948999071494
9,82,2,right_incg,0,incg,num_7,num_7,1,0.45480379997752607
9,83,3,left_incg,0,incg,num_9,num_9,1,0.3529484000755474
9,84,2,right_incg,0,incg,num_7,num_7,1,1.8398085000226274
9,85,3,left_incg,0,incg,num_9,num_9,1,0.6591569000156596
9,86,1,left_cong,1,cong,num_7,num_7,1,0.5026960999239236
9,87,1,left_cong,1,cong,num_7,num_7,1,0.3747473999392241
9,88,1,left_cong,1,cong,num_7,num_7,1,0.32837639993522316
9,89,1,left_cong,1,cong,num_7,num_7,1,0.33512309996876866
9,90,1,left_cong,1,cong,num_7,num_7,1,0.3391923001036048
9,91,0,right_cong,1,cong,num_9,num_9,1,0.3578916999977082
9,92,0,right_cong,1,cong,num_9,num_9,1,0.4290197999216616
9,93,0,right_cong,1,cong,num_9,num_9,1,0.3571346999378875
9,94,0,right_cong,1,cong,num_9,num_9,1,0.37406729999929667
9,95,0,right_cong,1,cong,num_9,num_9,1,0.37197639991063625
9,96,3,left_incg,0,incg,num_9,num_9,1,0.8365831000264734
9,97,3,left_incg,0,incg,num_9,num_9,1,0.4898051000200212
9,98,3,left_incg,0,incg,num_9,num_9,1,0.292274700012058
9,99,3,left_incg,0,incg,num_9,num_9,1,0.3554467000067234
9,100,3,left_incg,0,incg,num_9,num_9,1,0.33235100004822016
10,1,2,right_incg,0,incg,num_7,num_7,1,0.6323121000314131
10,2,2,right_incg,0,incg,num_7,num_7,1,0.5308825999964029
10,3,2,right_incg,0,incg,num_7,num_7,1,0.39901819999795407
10,4,2,right_incg,0,incg,num_7,num_7,1,0.4391015999717638
10,5,3,left_incg,0,incg,num_9,num_9,1,0.5000367000466213
10,6,2,right_incg,0,incg,num_7,num_7,1,0.5145102000096813
10,7,2,right_incg,0,incg,num_7,num_7,1,0.4729114000219852
10,8,2,right_incg,0,incg,num_7,num_7,1,0.42496450000908226
10,9,3,left_incg,0,incg,num_9,num_9,1,0.6872205999679863
10,10,2,right_incg,0,incg,num_7,num_7,1,0.6063667999114841
10,11,0,right_cong,1,cong,num_9,num_9,1,0.41928339994046837
10,12,0,right_cong,1,cong,num_9,num_9,1,0.45174589997623116
10,13,1,left_cong,1,cong,num_7,num_7,1,0.6329805999994278
10,14,1,left_cong,1,cong,num_7,num_7,1,0.410304999910295
10,15,0,right_cong,1,cong,num_9,num_9,1,0.3871237999992445
10,16,3,left_incg,0,incg,num_9,num_9,1,0.4989369000541046
10,17,3,left_incg,0,incg,num_9,num_9,1,0.49537419993430376
10,18,2,right_incg,0,incg,num_7,num_7,1,0.6115101999603212
10,19,3,left_incg,0,incg,num_9,num_9,1,0.4481874000048265
10,20,3,left_incg,0,incg,num_9,num_9,1,0.4659023000858724
10,21,3,left_incg,0,incg,num_9,num_9,1,0.48865039995871484
10,22,2,right_incg,0,incg,num_7,num_7,1,0.5369706000201404
10,23,2,right_incg,0,incg,num_7,num_7,1,0.7007036000723019
10,24,3,left_incg,0,incg,num_9,num_9,1,0.4268680000677705
10,25,3,left_incg,0,incg,num_9,num_9,1,0.48273649998009205
10,26,0,right_cong,1,cong,num_9,num_9,1,0.4644265999086201
10,27,1,left_cong,1,cong,num_7,num_7,1,0.3540353999705985
10,28,1,left_cong,1,cong,num_7,num_7,1,0.4471903999801725
10,29,1,left_cong,1,cong,num_7,num_7,1,0.42180479993112385
10,30,0,right_cong,1,cong,num_9,num_9,1,0.3456883999751881
10,31,2,right_incg,0,incg,num_7,num_7,1,1.1215559999691322
10,32,3,left_incg,0,incg,num_9,num_9,1,0.4178063999861479
10,33,2,right_incg,0,incg,num_7,num_7,1,0.37519769999198616
10,34,3,left_incg,0,incg,num_9,num_9,1,0.35846219991799444
10,35,2,right_incg,0,incg,num_7,num_7,1,0.3373816000530496
10,36,1,left_cong,1,cong,num_7,num_7,1,0.4051104000536725
10,37,0,right_cong,1,cong,num_9,num_9,1,0.3228532000211999
10,38,1,left_cong,1,cong,num_7,num_7,1,0.31411209993530065
10,39,0,right_cong,1,cong,num_9,num_9,1,0.33904120000079274
10,40,1,left_cong,1,cong,num_7,num_7,1,0.3585662000114098
10,41,2,right_incg,0,incg,num_7,num_7,1,0.4388414000859484
10,42,2,right_incg,0,incg,num_7,num_7,1,0.6534513999940827
10,43,2,right_incg,0,incg,num_7,num_7,1,0.44419419998303056
10,44,2,right_incg,0,incg,num_7,num_7,1,0.42955200001597404
10,45,3,left_incg,0,incg,num_9,num_9,1,0.4299792000092566
10,46,2,right_incg,0,incg,num_7,num_7,1,0.6696401999797672
10,47,2,right_incg,0,incg,num_7,num_7,1,1.3013441000366583
10,48,2,right_incg,0,incg,num_7,num_7,1,0.5487772999331355
10,49,2,right_incg,0,incg,num_7,num_7,1,0.369061499950476
10,50,2,right_incg,0,incg,num_7,num_7,1,0.36255089996848255
10,51,1,left_cong,1,cong,num_7,num_7,1,0.5769743999699131
10,52,1,left_cong,1,cong,num_7,num_7,1,0.4024692999664694
10,53,0,right_cong,1,cong,num_9,num_9,1,0.3877724000485614
10,54,0,right_cong,1,cong,num_9,num_9,1,0.4294057000661269
10,55,0,right_cong,1,cong,num_9,num_9,1,0.41228490008506924
10,56,2,right_incg,0,incg,num_7,num_7,1,0.6778907999396324
10,57,2,right_incg,0,incg,num_7,num_7,1,0.438562500057742
10,58,3,left_incg,0,incg,num_9,num_9,1,0.5106604000320658
10,59,2,right_incg,0,incg,num_7,num_7,1,0.7793897000374272
10,60,3,left_incg,0,incg,num_9,num_9,1,0.5000380999408662
10,61,2,right_incg,0,incg,num_7,num_7,1,0.8589716000715271
10,62,3,left_incg,0,incg,num_9,num_9,1,0.4029205000260845
10,63,3,left_incg,0,incg,num_9,num_9,1,0.4381502000615001
10,64,2,right_incg,0,incg,num_7,num_7,1,0.3919368999777362
10,65,2,right_incg,0,incg,num_7,num_7,1,0.5592593000037596
10,66,2,right_incg,0,incg,num_7,num_7,1,0.45905199996195734
10,67,3,left_incg,0,incg,num_9,num_9,1,0.3395088999532163
10,68,3,left_incg,0,incg,num_9,num_9,1,0.36778600001707673
10,69,2,right_incg,0,incg,num_7,num_7,1,0.41977260005660355
10,70,3,left_incg,0,incg,num_9,num_9,1,0.4025097000412643
10,71,1,left_cong,1,cong,num_7,num_7,1,0.5276497999439016
10,72,1,left_cong,1,cong,num_7,num_7,1,0.3662660999689251
10,73,1,left_cong,1,cong,num_7,num_7,1,0.3618017000844702
10,74,1,left_cong,1,cong,num_7,num_7,1,0.3502859000582248
10,75,0,right_cong,1,cong,num_9,num_9,1,0.37990309996530414
10,76,3,left_incg,0,incg,num_9,num_9,1,0.34550370008219033
10,77,2,right_incg,0,incg,num_7,num_7,1,0.3676800000248477
10,78,3,left_incg,0,incg,num_9,num_9,1,0.33982240001205355
10,79,2,right_incg,0,incg,num_7,num_7,1,0.5000366000458598
10,80,2,right_incg,0,incg,num_7,num_7,1,0.5601223999401554
10,81,2,right_incg,0,incg,num_7,num_7,1,0.5285239000804722
10,82,3,left_incg,0,incg,num_9,num_9,1,0.3687411999562755
10,83,2,right_incg,0,incg,num_7,num_7,1,0.3895973999751732
10,84,3,left_incg,0,incg,num_9,num_9,1,0.3789902999997139
10,85,3,left_incg,0,incg,num_9,num_9,1,0.4578427999513224
10,86,2,right_incg,0,incg,num_7,num_7,1,0.4399916999973357
10,87,2,right_incg,0,incg,num_7,num_7,1,0.4660278999945149
10,88,3,left_incg,0,incg,num_9,num_9,1,0.4234493999974802
10,89,2,right_incg,0,incg,num_7,num_7,1,0.41357309999875724
10,90,3,left_incg,0,incg,num_9,num_9,1,0.39993780001532286
10,91,2,right_incg,0,incg,num_7,num_7,1,0.5654931999742985
10,92,3,left_incg,0,incg,num_9,num_9,1,0.34086769993882626
10,93,2,right_incg,0,incg,num_7,num_7,1,0.3439888000721112
10,94,2,right_incg,0,incg,num_7,num_7,1,0.46436139999423176
10,95,2,right_incg,0,incg,num_7,num_7,1,0.4982949000550434
10,96,0,right_cong,1,cong,num_9,num_9,1,0.5855690999887884
10,97,0,right_cong,1,cong,num_9,num_9,1,0.46577619994059205
10,98,0,right_cong,1,cong,num_9,num_9,1,0.4460611999966204
10,99,0,right_cong,1,cong,num_9,num_9,1,0.5000452999956906
10,100,1,left_cong,1,cong,num_7,num_7,1,0.4051663000136614
